File: Final/uv_vis/data.txt
800 58.93870 46.42790 77.48620 59.96450 44.45270
799 58.71520 46.36470 77.39230 60.06980 44.39760
798 58.78000 46.32050 77.33360 60.05110 44.38830
797 58.60590 46.27240 77.35340 59.84810 44.31830
796 58.62120 46.25370 77.46510 59.87670 44.23640
795 58.51870 46.06540 77.19720 59.73390 44.09400
794 58.45450 46.10360 77.29490 59.75640 44.10730
793 58.50590 45.96150 77.35360 59.72010 43.96220
792 58.25700 45.96320 77.20200 59.55770 43.88530
791 58.32250 45.94130 77.26040 59.59590 43.77850
790 58.22180 45.87850 77.32190 59.55060 43.66090
789 58.27220 45.86680 77.24680 59.49740 43.63950
788 58.08850 45.72060 77.05360 59.28100 43.54000
787 58.08990 45.70950 76.97850 59.35970 43.49940
786 57.95810 45.72390 77.08050 59.37950 43.36580
785 57.86470 45.65880 76.98740 59.33720 43.39080
784 57.72600 45.48810 76.74880 59.13410 43.25700
783 57.71520 45.47030 76.77750 59.03280 43.29650
782 57.76120 45.39060 76.74430 59.07740 43.15180
781 57.56440 45.18270 76.52070 58.83700 43.08000
780 57.52050 45.30260 76.60110 58.92730 42.97710
779 57.43650 45.16600 76.63850 58.94810 42.92370
778 57.47850 45.17490 76.65780 58.80260 42.87830
777 57.48780 45.09160 76.46510 58.64140 42.70160
776 57.31950 45.00030 76.45910 58.61600 42.64670
775 57.24940 44.93640 76.35660 58.51740 42.51990
774 57.09750 44.90520 76.43400 58.52470 42.54010
773 57.17850 44.84620 76.37720 58.52290 42.43560
772 56.89880 44.72380 76.40480 58.34860 42.34520
771 56.95840 44.76670 76.35700 58.37980 42.35610
770 56.73790 44.61370 76.21050 58.25210 42.25620
769 56.76280 44.49020 76.16620 58.14230 42.19770
768 56.72570 44.53980 76.27930 58.26060 42.04430
767 56.70550 44.31730 76.00510 58.05600 41.98000
766 56.64670 44.40340 76.05040 57.98070 41.85180
765 56.49350 44.39850 76.11470 58.08330 41.83340
764 56.51980 44.34480 76.07480 57.96800 41.72890
763 56.38910 44.36830 76.09760 57.99190 41.67270
762 56.42430 44.13320 75.96320 57.75720 41.64620
761 56.35890 44.12140 75.92220 57.80240 41.53100
760 56.11150 44.03400 75.76970 57.63710 41.55350
759 56.12700 43.89810 75.80770 57.55060 41.41010
758 56.03970 43.82050 75.60380 57.45190 41.38670
757 55.99240 43.77630 75.52230 57.42930 41.25240
756 55.84240 43.71230 75.50640 57.40520 41.18390
755 55.86210 43.60870 75.32640 57.18860 41.13140
754 55.69240 43.60580 75.23210 57.18550 41.00720
753 55.72570 43.42970 75.33170 57.19570 40.96630
752 55.56450 43.41110 75.42120 57.05480 40.87730
751 55.60290 43.38220 75.36060 57.00030 40.83940
750 55.50690 43.32030 75.47960 57.06120 40.71350
749 55.35370 43.30100 75.41050 57.00440 40.62500
748 55.34450 43.17650 75.31180 56.87330 40.51590
747 55.16370 43.10670 75.32790 56.83360 40.53200
746 55.21560 43.08100 75.22760 56.76850 40.45680
745 55.09430 43.00670 75.16150 56.76180 40.32830
744 55.12910 43.01290 75.18800 56.69210 40.29260
743 54.99510 42.94490 75.11860 56.57240 40.15740
742 54.88940 42.84740 74.97290 56.48900 40.13110
741 54.89760 42.72050 74.89330 56.41400 39.98230
740 54.77160 42.65850 74.83370 56.26020 39.93650
739 54.82890 42.53940 74.73840 56.33120 39.86990
738 54.62150 42.45710 74.74550 56.13340 39.87730
737 54.62650 42.47890 74.69480 56.20280 39.78600
736 54.44270 42.32050 74.60220 56.07880 39.70630
735 54.52770 42.35070 74.58750 55.92050 39.66290
734 54.45030 42.14600 74.45780 55.79040 39.55230
733 54.38920 42.16530 74.42100 55.86900 39.53460
732 54.28860 42.17790 74.33260 55.74440 39.37290
731 54.11370 42.06220 74.36260 55.69550 39.36810
730 54.11830 41.93300 74.31750 55.71500 39.26290
729 53.94430 41.78960 74.16650 55.65720 39.19700
728 54.01660 41.78960 74.29620 55.47370 39.15720
727 53.85590 41.65100 74.33470 55.40470 39.05040
726 53.78210 41.49440 74.11260 55.37440 39.02160
725 53.66480 41.45010 74.00950 55.19090 38.84610
724 53.65240 41.36900 74.10690 55.15120 38.86830
723 53.61770 41.53500 74.15750 55.28170 38.73070
722 53.51270 41.32480 74.05140 55.02450 38.72590
721 53.46960 41.16100 73.90640 54.98030 38.57840
720 53.33560 41.35450 74.07550 55.15160 38.47170
719 53.32390 41.22860 74.06270 54.97260 38.42350
718 53.18210 40.97840 73.78140 54.78990 38.35410
717 53.18540 41.01110 73.89480 54.81190 38.36370
716 53.10240 41.06270 73.79980 54.85180 38.26840
715 52.98600 40.75870 73.54820 54.56330 38.25390
714 52.98850 40.72350 73.43450 54.45950 38.14040
713 52.79730 40.71340 73.60560 54.45800 38.05360
712 52.87260 40.49800 73.34480 54.28420 38.00930
711 52.66760 40.47620 73.20870 54.23610 37.88880
710 52.76990 40.44680 73.39260 54.22870 37.87140
709 52.57620 40.42240 73.27860 54.26590 37.75880
708 52.51580 40.21140 73.11320 54.10490 37.73540
707 52.42290 40.20000 73.13170 53.98450 37.59560
706 52.34330 40.11240 73.23520 53.99380 37.57000
705 52.32290 40.02770 73.13660 53.94890 37.49730
704 52.19930 39.88360 72.93710 53.69700 37.47810
703 52.19690 39.81660 72.95870 53.64110 37.42350
702 52.01500 39.84030 72.98380 53.74140 37.33630
701 52.00670 39.67250 72.72630 53.54660 37.30650
700 51.92640 39.55530 72.70630 53.41320 37.10470
699 51.86110 39.57760 72.70910 53.41020 37.06240
698 51.78600 39.44830 72.79340 53.37520 36.95100
697 51.68840 39.48070 72.84860 53.42550 36.92400
696 51.67670 39.27880 72.72200 53.22970 36.86630
695 51.56630 39.29850 72.64950 53.11140 36.80300
694 51.55400 39.20260 72.52270 53.02910 36.75470
693 51.41090 39.00920 72.45130 52.86800 36.65560
692 51.39040 39.09800 72.47460 52.90710 36.69020
691 51.24840 38.99830 72.34570 52.87970 36.54500
690 51.19560 38.94270 72.29970 52.77990 36.55530
689 51.15390 38.76700 72.13870 52.66880 36.40930
688 51.04980 38.82080 72.22480 52.68240 36.37320
687 51.04670 38.61380 71.95560 52.51750 36.29620
686 50.87460 38.57890 72.04100 52.48310 36.23540
685 50.86760 38.56610 72.01960 52.41710 36.16960
684 50.73810 38.36750 72.00120 52.43460 36.08490
683 50.71070 38.27970 71.81470 52.18330 36.04140
682 50.58580 38.13450 71.68440 52.05830 35.95330
681 50.48460 38.03030 71.82070 52.06740 35.93200
680 50.49510 38.00180 71.72580 51.95190 35.82220
679 50.35330 37.91490 71.52300 51.79450 35.78160
678 50.38640 37.86670 71.62710 51.86850 35.70450
677 50.19090 37.82170 71.50790 51.79430 35.59440
676 50.22530 37.74130 71.34290 51.62650 35.59630
675 50.07900 37.70690 71.41150 51.69050 35.43980
674 50.06990 37.64990 71.50530 51.62510 35.44380
673 49.95330 37.54150 71.31040 51.45520 35.32800
672 49.92840 37.36030 71.29000 51.38400 35.32250
671 49.86190 37.35240 71.27300 51.37070 35.23970
670 49.73670 37.23330 71.08770 51.20610 35.21210
669 49.73260 37.16770 71.17340 51.16960 35.12870
668 49.53070 37.10740 71.05140 51.11520 35.08740
667 49.54490 37.01870 71.10660 51.00530 35.08190
666 49.42960 37.00440 70.96640 50.95150 34.98460
665 49.41970 36.82670 70.84590 50.75370 34.97960
664 49.39380 36.79220 70.82800 50.73380 34.81340
663 49.24480 36.66540 70.63620 50.68580 34.74250
662 49.20840 36.63500 70.62850 50.58180 34.68930
661 49.05530 36.52300 70.41380 50.48610 34.62140
660 49.06500 36.44760 70.34720 50.42420 34.60460
659 48.91950 36.41050 70.48560 50.40070 34.50710
658 48.88890 36.18820 70.28060 50.21520 34.49080
657 48.73900 36.17030 70.21780 50.12470 34.36130
656 48.73870 36.11730 70.17680 50.12220 34.35960
655 48.65400 36.01540 70.10170 50.00160 34.24940
654 48.53790 35.96450 70.04750 49.99530 34.17700
653 48.62970 35.87270 70.12880 49.92480 34.11610
652 48.41670 35.83100 70.13710 49.74820 34.02740
651 48.43360 35.68950 69.87560 49.64710 33.99670
650 48.27270 35.59180 69.90460 49.59330 33.92810
649 48.21880 35.58440 69.84990 49.61050 33.93490
648 48.16680 35.46380 69.60510 49.44050 33.79960
647 48.09590 35.41490 69.59620 49.41460 33.76600
646 48.03330 35.28120 69.69010 49.28800 33.69360
645 47.84820 35.25270 69.56140 49.17320 33.70740
644 47.85460 35.07740 69.37290 49.10730 33.63900
643 47.72780 35.02830 69.35110 49.01210 33.53120
642 47.80970 35.08440 69.51300 49.08960 33.48480
641 47.64050 34.85160 69.36030 48.97220 33.38430
640 47.62900 34.82990 69.32110 48.87200 33.40500
639 47.48060 34.79650 69.34440 48.69640 33.30370
638 47.42800 34.66170 69.18570 48.69600 33.27450
637 47.31420 34.56930 69.04980 48.61630 33.18640
636 47.22620 34.56720 69.06940 48.54440 33.14920
635 47.19440 34.40690 68.89070 48.42410 33.05830
634 47.01890 34.35320 68.76160 48.36650 32.99800
633 47.03750 34.35820 68.78750 48.33170 32.94840
632 46.90920 34.25580 68.67670 48.28890 32.85880
631 46.89670 34.18030 68.68980 48.16480 32.81510
630 46.83940 34.07010 68.50900 48.02320 32.70270
629 46.73060 33.90610 68.33350 47.93040 32.67240
628 46.70900 33.89710 68.49680 47.89990 32.60020
627 46.55320 33.74110 68.30080 47.75970 32.55960
626 46.58100 33.64940 68.17510 47.69920 32.51330
625 46.40450 33.54940 68.06410 47.50440 32.44680
624 46.46760 33.59520 68.25240 47.53390 32.43440
623 46.26950 33.43290 67.98090 47.46680 32.34120
622 46.27230 33.34340 67.90350 47.34670 32.32980
621 46.16020 33.34770 67.84540 47.28580 32.24010
620 46.10400 33.26140 67.78840 47.27160 32.21620
619 46.08420 33.17400 67.67170 47.09000 32.13950
618 45.96780 33.10050 67.66900 46.99390 32.03690
617 45.93520 33.00810 67.60330 46.99020 32.01860
616 45.75780 32.95190 67.58150 46.95220 31.89530
615 45.70810 32.72610 67.48390 46.73770 31.91020
614 45.56130 32.73330 67.35600 46.76600 31.80550
613 45.55400 32.70950 67.33270 46.71410 31.81260
612 45.41140 32.57010 67.16540 46.51680 31.68780
611 45.34100 32.52930 67.13060 46.48870 31.66070
610 45.33090 32.40380 67.01120 46.39140 31.58230
609 45.18650 32.43190 67.05760 46.41150 31.57860
608 45.20270 32.30100 66.83390 46.28830 31.51560
607 45.04040 32.23420 66.78450 46.18700 31.39220
606 45.07850 32.14220 66.77780 46.07790 31.35670
605 44.95850 32.02220 66.56700 45.91570 31.25220
604 44.93280 31.91860 66.46240 45.89860 31.20820
603 44.76070 31.79440 66.49980 45.77560 31.14330
602 44.74820 31.75350 66.35280 45.60620 31.13920
601 44.69160 31.62160 66.18070 45.58460 31.09650
600 44.51920 31.63620 66.16930 45.58820 31.04220
599 44.57490 31.57400 66.17160 45.50490 30.98460
598 44.38160 31.47720 65.98010 45.39680 30.88810
597 44.41580 31.39210 66.06750 45.43890 30.83830
596 44.27890 31.39620 66.01290 45.28860 30.76700
595 44.20840 31.30170 65.93330 45.24250 30.76290
594 44.13610 31.18190 65.69930 45.16640 30.66790
593 43.99730 31.14130 65.75230 45.07480 30.62360
592 43.95840 31.14520 65.60790 45.11840 30.53880
591 43.80910 30.98180 65.43280 44.89080 30.50530
590 43.78980 30.86300 65.27140 44.74450 30.47450
589 43.63370 30.77580 65.24480 44.76920 30.41870
588 43.65350 30.71280 65.17400 44.67950 30.36310
587 43.51670 30.52960 64.95940 44.52650 30.24870
586 43.49820 30.52660 64.95870 44.44330 30.21630
585 43.41320 30.48210 64.88830 44.40480 30.13900
584 43.26450 30.35980 64.84160 44.27030 30.08260
583 43.26850 30.21600 64.69280 44.17820 30.03400
582 43.09290 30.18250 64.68230 44.10700 29.92780
581 43.15170 30.14860 64.52370 43.99010 29.90720
580 42.98510 30.01060 64.32640 43.91270 29.79900
579 42.93780 29.93010 64.21040 43.79320 29.76880
578 42.81980 29.95810 64.19760 43.86870 29.72730
577 42.78590 29.89340 64.14130 43.76260 29.69670
576 42.74600 29.78670 63.98890 43.63470 29.58270
575 42.56580 29.68240 64.04430 43.58920 29.51460
574 42.54820 29.68330 64.07430 43.52420 29.46100
573 42.39270 29.54280 63.87180 43.48520 29.38130
572 42.40220 29.42290 63.66310 43.30440 29.38310
571 42.25880 29.40940 63.67470 43.28350 29.30030
570 42.20260 29.28810 63.57560 43.16600 29.27200
569 42.08510 29.16350 63.33160 43.07520 29.18070
568 41.97080 29.09030 63.23680 42.95030 29.10620
567 41.83980 29.09850 63.22650 42.94930 29.05180
566 41.78960 29.02140 63.12280 43.01030 28.97380
565 41.68230 28.91040 63.02200 42.78270 28.93420
564 41.64190 28.81390 62.79180 42.68670 28.89260
563 41.53960 28.74160 62.72270 42.64860 28.84700
562 41.49090 28.65790 62.70830 42.57820 28.78060
561 41.35140 28.52890 62.56730 42.44950 28.67170
560 41.33650 28.49010 62.43640 42.43950 28.64290
559 41.21920 28.44990 62.40410 42.34860 28.54480
558 41.13020 28.36270 62.35310 42.22380 28.53170
557 41.12460 28.23580 62.14420 42.14530 28.44640
556 40.93460 28.18680 62.01560 42.09800 28.34800
555 40.89190 28.11640 62.01780 41.95500 28.29290
554 40.70480 27.96860 61.79260 41.85280 28.22890
553 40.68530 27.90420 61.58470 41.78640 28.18020
552 40.54490 27.85620 61.48180 41.71740 28.14060
551 40.48420 27.81020 61.42980 41.68460 28.07280
550 40.37220 27.72120 61.30280 41.60220 27.97370
549 40.28020 27.59980 61.26450 41.56960 27.94820
548 40.18110 27.53760 61.21570 41.45680 27.87750
547 40.08100 27.46940 60.96550 41.37950 27.79310
546 40.02570 27.38490 60.97030 41.30910 27.79900
545 39.88670 27.29620 60.85850 41.29380 27.66080
544 39.85970 27.24110 60.64800 41.13930 27.59450
543 39.70600 27.13560 60.56720 41.05060 27.51350
542 39.63550 27.00960 60.45120 40.97660 27.45710
541 39.53490 26.99450 60.33550 40.88690 27.35340
540 39.41250 26.86550 60.15450 40.79870 27.31760
539 39.34910 26.81660 60.08570 40.73600 27.24380
538 39.13820 26.79710 60.01590 40.72070 27.18870
537 39.15790 26.64310 59.79130 40.61910 27.09300
536 38.98320 26.58850 59.77770 40.51590 27.01590
535 39.00700 26.45890 59.52680 40.36770 26.96240
534 38.81380 26.40380 59.51240 40.39820 26.85980
533 38.74470 26.28790 59.36400 40.20740 26.82060
532 38.58490 26.21350 59.30110 40.18060 26.71170
531 38.49990 26.10330 59.09370 40.05090 26.67110
530 38.47750 26.01670 58.92670 39.95610 26.61410
529 38.30960 25.96970 58.87970 39.89210 26.54920
528 38.22560 25.83350 58.72640 39.83400 26.47670
527 38.03190 25.85790 58.68460 39.79310 26.38010
526 37.95520 25.75240 58.47580 39.70150 26.34030
525 37.83620 25.64980 58.36840 39.63470 26.26280
524 37.77370 25.64380 58.38700 39.50060 26.18190
523 37.66980 25.44940 58.07770 39.36470 26.07890
522 37.49010 25.40780 58.03730 39.33840 25.99640
521 37.42790 25.30630 57.90870 39.24210 25.93200
520 37.22340 25.13610 57.70570 39.09650 25.85730
519 37.17810 25.06980 57.56000 39.05400 25.79420
518 37.00350 24.96980 57.41120 38.94880 25.70050
517 36.96230 24.90080 57.30340 38.91300 25.59520
516 36.81730 24.83750 57.30930 38.87250 25.52370
515 36.72040 24.79620 57.19140 38.76230 25.46570
514 36.59220 24.69200 56.99690 38.74790 25.38030
513 36.44730 24.58050 56.83750 38.66050 25.30190
512 36.38130 24.49470 56.67630 38.50630 25.23140
511 36.22430 24.37740 56.54900 38.41400 25.12490
510 36.15600 24.36470 56.55200 38.36900 25.05230
509 35.97220 24.23780 56.38120 38.24170 24.96130
508 35.83980 24.13530 56.19050 38.08160 24.89280
507 35.72370 24.04840 56.04010 38.00930 24.78640
506 35.57750 23.94410 55.95230 37.91650 24.69560
505 35.51380 23.85060 55.85680 37.82240 24.59650
504 35.32780 23.73400 55.59380 37.70990 24.53270
503 35.23010 23.70590 55.58270 37.62910 24.45610
502 35.02630 23.57330 55.39530 37.54950 24.36830
501 34.96890 23.50620 55.28090 37.43050 24.30080
500 34.76340 23.39450 55.04070 37.34310 24.16680
499 34.66740 23.26270 54.95950 37.25060 24.09560
498 34.49910 23.23740 54.80950 37.20240 23.98380
497 34.34650 23.08020 54.53930 37.02620 23.91540
496 34.26250 23.03710 54.59670 36.97960 23.80550
495 34.04940 22.93100 54.39390 36.90130 23.70550
494 33.96210 22.78110 54.19060 36.69610 23.61060
493 33.80360 22.73560 54.24250 36.67210 23.52830
492 33.74400 22.61370 53.98730 36.60790 23.45310
491 33.58540 22.46060 53.78050 36.39130 23.32930
490 33.47780 22.35750 53.72020 36.26140 23.25520
489 33.29250 22.31310 53.60180 36.22390 23.14230
488 33.13850 22.20390 53.40490 36.12130 23.06210
487 33.03900 22.08490 53.28960 35.99760 22.98050
486 32.82720 22.00220 53.14170 35.84810 22.87830
485 32.72480 21.90550 52.95660 35.72780 22.77410
484 32.51810 21.86000 52.97480 35.66890 22.64770
483 32.39700 21.73290 52.79290 35.57300 22.57290
482 32.23000 21.68220 52.67620 35.47600 22.43340
481 32.07340 21.62330 52.61710 35.40780 22.37520
480 31.93180 21.44610 52.40380 35.24600 22.25670
479 31.75560 21.31700 52.24030 35.05440 22.16430
478 31.68030 21.23880 52.11110 34.99920 22.03080
477 31.41770 21.13720 52.02950 34.88730 21.95080
476 31.35200 20.95990 51.67590 34.73050 21.84550
475 31.14040 20.91100 51.60790 34.63700 21.74590
474 31.04120 20.83180 51.48740 34.51940 21.65070
473 30.84560 20.69740 51.29580 34.41200 21.52290
472 30.65040 20.57490 51.10560 34.23420 21.39730
471 30.50610 20.45360 50.96880 34.09840 21.29480
470 30.34130 20.42060 50.89150 34.00590 21.19180
469 30.21420 20.27640 50.68200 33.84880 21.10060
468 30.00180 20.13920 50.51830 33.69010 21.00240
467 29.89860 20.07620 50.47950 33.60080 20.88020
466 29.64070 19.93930 50.26540 33.41930 20.71720
465 29.53570 19.82040 50.04460 33.25130 20.64260
464 29.33970 19.68340 49.86430 33.14150 20.50460
463 29.19380 19.59900 49.81030 32.95250 20.43670
462 29.03600 19.51140 49.63610 32.86660 20.28470
461 28.81920 19.41210 49.40770 32.71840 20.19320
460 28.69760 19.28020 49.42050 32.52430 20.05740
459 28.47150 19.14910 49.23170 32.44080 19.96250
458 28.35670 19.07230 48.95300 32.28210 19.86630
457 28.14410 18.90000 48.76870 32.06160 19.74570
456 28.01100 18.83650 48.72470 31.91850 19.62960
455 27.84000 18.76550 48.62360 31.86290 19.50010
454 27.62500 18.61090 48.41500 31.68120 19.37160
453 27.46470 18.49360 48.25820 31.49260 19.24140
452 27.24500 18.43220 48.08580 31.42830 19.11580
451 27.13640 18.28070 47.97290 31.20860 19.03730
450 26.94080 18.18470 47.80900 31.07140 18.87960
449 26.79680 18.09160 47.64140 30.91550 18.77470
448 26.56810 17.98070 47.53500 30.78020 18.63080
447 26.40610 17.78560 47.24030 30.52790 18.51100
446 26.21410 17.73480 47.07530 30.39420 18.39890
445 26.02100 17.54770 46.95490 30.19730 18.29390
444 25.89630 17.45230 46.78470 30.02120 18.14040
443 25.62990 17.36760 46.56680 29.89190 18.02350
442 25.52040 17.21410 46.31330 29.69100 17.88450
441 25.27200 17.12070 46.16550 29.45390 17.76880
440 25.13760 16.99590 45.96200 29.31740 17.66620
439 24.91330 16.89170 45.93800 29.16000 17.52760
438 24.77140 16.75260 45.74180 28.96980 17.40940
437 24.58320 16.64740 45.51970 28.79220 17.29240
436 24.41390 16.50500 45.29590 28.61830 17.15060
435 24.26620 16.40320 45.18120 28.42980 17.02240
434 24.02790 16.32760 45.04640 28.27800 16.89220
433 23.85470 16.16040 44.81440 28.11080 16.77360
432 23.63440 16.07350 44.69920 27.86190 16.63870
431 23.46940 15.97760 44.50200 27.74640 16.49820
430 23.28160 15.85390 44.23950 27.54980 16.36190
429 23.08040 15.73230 44.03820 27.34120 16.24630
428 22.90640 15.62070 43.89050 27.16860 16.11110
427 22.65980 15.53640 43.77420 27.00410 15.98510
426 22.52170 15.38920 43.49610 26.72820 15.84550
425 22.29580 15.24490 43.25390 26.53930 15.71330
424 22.19480 15.17140 43.23350 26.41010 15.57700
423 21.94270 15.00840 42.93850 26.12280 15.44450
422 21.78270 14.86860 42.68850 25.93740 15.31790
421 21.57060 14.74510 42.48330 25.76920 15.17430
420 21.41340 14.65010 42.36110 25.55400 15.07410
419 21.23350 14.49570 42.01870 25.31550 14.92700
418 21.02650 14.42170 41.89990 25.13460 14.79020
417 20.85900 14.29340 41.70580 24.93920 14.65080
416 20.62650 14.12780 41.42010 24.68960 14.53030
415 20.49070 14.04640 41.20830 24.49340 14.40220
414 20.27360 13.91510 40.98530 24.22860 14.27170
413 20.10520 13.81370 40.85030 24.07340 14.15370
412 19.93530 13.70940 40.65020 23.87290 13.99920
411 19.71510 13.58630 40.46500 23.65430 13.86350
410 19.56200 13.46000 40.17740 23.46820 13.71660
409 19.32800 13.32960 39.96490 23.23030 13.59420
408 19.18290 13.22770 39.79250 23.02920 13.46270
407 18.97300 13.10240 39.49040 22.84220 13.32890
406 18.81900 13.01560 39.39060 22.66060 13.20670
405 18.59530 12.87530 39.17160 22.44380 13.05160
404 18.43270 12.75180 38.92790 22.22670 12.94170
403 18.23880 12.67300 38.69480 22.01590 12.79660
402 18.05080 12.52010 38.40830 21.81320 12.66620
401 17.90550 12.43170 38.26860 21.57300 12.53500
400 17.69580 12.27840 37.94890 21.35500 12.39850
399 17.57290 12.18690 37.77800 21.14610 12.26760
398 17.34850 12.06530 37.52990 20.95230 12.13750
397 17.18960 11.92540 37.24970 20.70110 12.01030
396 16.99730 11.80240 36.96920 20.47540 11.87260
395 16.82290 11.68160 36.72150 20.27910 11.74870
394 16.65170 11.60460 36.61110 20.07190 11.62520
393 16.45230 11.46190 36.33120 19.84010 11.49210
392 16.29470 11.35860 36.08460 19.63440 11.35720
391 16.10780 11.28950 35.93280 19.48030 11.23640
390 15.94210 11.14110 35.62000 19.21710 11.10910
389 15.73310 11.03650 35.40960 18.99780 10.96630
388 15.60060 10.91510 35.07710 18.80090 10.84220
387 15.41200 10.83470 34.89510 18.60300 10.71260
386 15.25990 10.69900 34.58570 18.36770 10.59410
385 15.09430 10.58450 34.33740 18.13640 10.46470
384 14.89100 10.49980 34.17640 17.98390 10.34010
383 14.76030 10.36670 33.86730 17.75120 10.21970
382 14.55850 10.23710 33.59830 17.51350 10.07730
381 14.43560 10.13860 33.38470 17.35390 9.97028
380 14.24020 10.04530 33.11740 17.15440 9.83252
379 14.09470 9.90626 32.85550 16.92180 9.70500
378 13.91900 9.80575 32.62470 16.70750 9.58594
377 13.76300 9.72804 32.39080 16.55210 9.45753
376 13.61550 9.58852 32.07860 16.32260 9.34909
375 13.42960 9.48603 31.86350 16.11510 9.22577
374 13.30130 9.37437 31.52270 15.92630 9.10278
373 13.11060 9.27517 31.28440 15.69450 8.98388
372 12.98830 9.19445 31.09290 15.51160 8.86843
371 12.82390 9.06313 30.79700 15.29290 8.74931
370 12.67450 8.96901 30.54400 15.07330 8.62686
369 12.50580 8.89355 30.39020 14.91520 8.50949
368 12.34420 8.77739 30.11460 14.72010 8.38238
367 12.21850 8.63565 29.78300 14.50620 8.27454
366 12.06630 8.55405 29.57560 14.33020 8.15974
365 11.93190 8.46969 29.29560 14.14730 8.05470
364 11.75150 8.33542 28.97090 13.94920 7.94324
363 11.62450 8.27743 28.79060 13.77970 7.82691
362 11.44570 8.15842 28.47350 13.58970 7.71014
361 11.33070 8.06239 28.22870 13.38630 7.60120
360 11.17770 7.97823 27.98330 13.21140 7.48270
359 11.03380 7.87319 27.73740 13.04860 7.38287
358 10.89470 7.79423 27.48400 12.86440 7.27061
357 10.74420 7.67908 27.19230 12.68040 7.15895
356 10.63590 7.59625 26.98810 12.51280 7.05121
355 10.48240 7.48994 26.68430 12.34580 6.95391
354 10.37030 7.41363 26.49810 12.18350 6.85586
353 10.20660 7.30824 26.17690 12.02130 6.74090
352 10.07660 7.21332 25.93870 11.82300 6.63960
351 9.95164 7.12736 25.71790 11.66440 6.52753
350 9.81275 7.01516 25.33380 11.46840 6.42823
349 9.69069 6.93650 25.13230 11.27690 6.33332
348 9.57021 6.84112 24.89440 11.11810 6.20834
347 9.41929 6.76066 24.67600 10.96340 6.10284
346 9.26070 6.67287 24.41460 10.80550 6.02511
345 9.11779 6.58174 24.15640 10.63250 5.95625
344 9.01806 6.50336 23.91500 10.47830 5.86352
343 8.90253 6.41860 23.66610 10.32320 5.74922
342 8.79373 6.33619 23.42550 10.16140 5.65316
341 8.63794 6.24589 23.18730 10.01140 5.56013
340 8.50807 6.16855 22.91850 9.85100 5.47507
339 8.38410 6.07914 22.68760 9.70988 5.39355
338 8.28820 5.99345 22.41860 9.55099 5.30151
337 8.14874 5.91311 22.17420 9.41323 5.21096
336 8.03895 5.81976 21.94230 9.25919 5.11337
335 7.91772 5.74755 21.70880 9.11768 5.01879
334 7.80369 5.67524 21.46850 8.98414 4.93596
333 7.68796 5.59189 21.23730 8.83737 4.85078
332 7.57352 5.51547 20.99320 8.68832 4.77345
331 7.45364 5.44303 20.76950 8.55757 4.69043
330 7.33577 5.36501 20.54100 8.42791 4.61067
329 7.22783 5.28589 20.29850 8.29922 4.51983
328 7.12644 5.21419 20.07560 8.16650 4.44151
327 7.02001 5.13380 19.84400 8.03361 4.37197
326 6.91012 5.06284 19.63400 7.91011 4.29247
325 6.80779 4.99273 19.41410 7.76882 4.21744
324 6.69320 4.91172 19.17860 7.64696 4.14298
323 6.59711 4.84340 18.96020 7.52728 4.07302
322 6.48995 4.77192 18.74000 7.40286 3.99772
321 6.39592 4.70617 18.54290 7.29524 3.92476
320 6.28691 4.63608 18.31890 7.17118 3.85657
319 6.17147 4.56617 18.10250 7.05357 3.78554
318 6.07361 4.49973 17.89700 6.94565 3.71651
317 5.97701 4.42655 17.68670 6.82114 3.64232
316 5.87459 4.36126 17.48510 6.71626 3.57387
315 5.77161 4.29072 17.28130 6.60463 3.50291
314 5.67996 4.22589 17.08640 6.49944 3.43600
313 5.57757 4.15204 16.88900 6.38407 3.36993
312 5.48210 4.08935 16.68100 6.27825 3.30287
311 5.38025 4.02779 16.49080 6.18188 3.24543
310 5.28434 3.95545 16.29450 6.07438 3.18415
309 5.19811 3.89396 16.10530 5.96943 3.12519
308 5.09853 3.82351 15.91270 5.87327 3.05846
307 5.00692 3.75916 15.72880 5.77537 3.00026
306 4.91902 3.69157 15.54290 5.67741 2.93838
305 4.83080 3.63560 15.36890 5.58626 2.88697
304 4.73518 3.57422 15.18830 5.49477 2.83477
303 4.63069 3.50837 15.00650 5.39912 2.78175
302 4.54618 3.44625 14.81750 5.30276 2.72161
301 4.46453 3.38038 14.63710 5.21338 2.67493
300 4.38107 3.32314 14.47500 5.13239 2.62565
299 4.28855 3.25994 14.29450 5.04271 2.56989
298 4.21187 3.20909 14.13020 4.95964 2.51404
297 4.12405 3.14693 13.96340 4.87256 2.46827
296 4.04519 3.09077 13.78760 4.79285 2.42566
295 3.96303 3.03393 13.61840 4.70794 2.37352
294 3.87700 2.97612 13.45690 4.62055 2.32392
293 3.79848 2.92292 13.29400 4.54770 2.27990
292 3.72176 2.86782 13.12280 4.46712 2.23128
291 3.64505 2.81365 12.97060 4.38670 2.18827
290 3.55144 2.76485 12.81810 4.31464 2.14663
289 3.48338 2.71447 12.64530 4.23583 2.10369
288 3.40088 2.66573 12.49740 4.16203 2.06004
287 3.32906 2.61716 12.34660 4.09041 2.01605
286 3.26098 2.56926 12.18590 4.01443 1.97840
285 3.17402 2.52113 12.03130 3.94291 1.94015
284 3.09955 2.47161 11.88260 3.87045 1.90110
283 3.02580 2.43161 11.71800 3.80684 1.85985
282 2.96195 2.38371 11.57010 3.73481 1.82404
281 2.88824 2.33740 11.41390 3.66534 1.78904
280 2.81967 2.29434 11.26360 3.59643 1.75231
279 2.75398 2.24953 11.10900 3.53476 1.71778
278 2.68759 2.21222 10.95580 3.46867 1.68889
277 2.62292 2.16912 10.80430 3.40479 1.65406
276 2.56136 2.12931 10.65100 3.34089 1.61751
275 2.49759 2.09129 10.49500 3.28077 1.59550
274 2.43583 2.05562 10.34880 3.21749 1.55821
273 2.37761 2.01805 10.19300 3.15443 1.52564
272 2.31690 1.97654 10.02910 3.09270 1.49626
271 2.25690 1.93877 9.87749 3.02919 1.47037
270 2.20442 1.90499 9.72120 2.97509 1.43947
269 2.14538 1.87347 9.56723 2.91020 1.41312
268 2.09524 1.83563 9.41053 2.85641 1.37951
267 2.03996 1.80336 9.25144 2.80143 1.35258
266 1.99717 1.77229 9.09474 2.74261 1.32944
265 1.94251 1.73675 8.93478 2.68687 1.30206
264 1.89289 1.70549 8.77588 2.63354 1.28163
263 1.84396 1.67870 8.61488 2.57606 1.25225
262 1.79452 1.64253 8.45773 2.52414 1.23069
261 1.75092 1.61803 8.29721 2.47153 1.20529
260 1.70993 1.58503 8.13733 2.41985 1.18510
259 1.66688 1.55975 7.97389 2.36901 1.16337
258 1.62265 1.53320 7.81335 2.31701 1.14342
257 1.58318 1.50633 7.65323 2.26591 1.12094
256 1.54780 1.48098 7.49540 2.21810 1.10237
255 1.51071 1.45487 7.33552 2.16743 1.08170
254 1.46888 1.42551 7.17283 2.12007 1.06645
253 1.43923 1.40422 7.01733 2.07499 1.04670
252 1.40332 1.38378 6.86110 2.02891 1.02540
251 1.36888 1.35783 6.70141 1.98241 1.00913
250 1.33787 1.33420 6.54313 1.93531 0.98862
249 1.30695 1.31367 6.38884 1.89264 0.97381
248 1.27609 1.28774 6.23378 1.84787 0.95576
247 1.24899 1.26865 6.08203 1.80711 0.93873
246 1.22333 1.24406 5.93361 1.76415 0.92392
245 1.19895 1.23228 5.79517 1.72818 0.90682
244 1.17171 1.20818 5.64642 1.68319 0.89437
243 1.14440 1.18988 5.50506 1.64452 0.88101
242 1.12543 1.16993 5.36182 1.60476 0.86766
241 1.10261 1.15161 5.22844 1.56638 0.84952
240 1.08135 1.13471 5.09721 1.53040 0.83266
239 1.06036 1.11604 4.96541 1.49414 0.82085
238 1.03964 1.09958 4.82828 1.45741 0.80926
237 1.01907 1.08218 4.70782 1.42319 0.79717
236 1.00263 1.06545 4.58116 1.38666 0.78378
235 0.98475 1.04884 4.46021 1.35574 0.77221
234 0.96824 1.03204 4.34573 1.32155 0.76087
233 0.95305 1.01857 4.22918 1.29227 0.75007
232 0.93626 1.00470 4.11685 1.26034 0.73752
231 0.91740 0.98758 4.00495 1.22716 0.72878
230 0.90511 0.97348 3.89419 1.19706 0.71726
229 0.88833 0.96136 3.79161 1.17124 0.70487
228 0.87728 0.94241 3.68851 1.14107 0.69677
227 0.86343 0.93218 3.58660 1.11474 0.68950
226 0.84467 0.91893 3.48969 1.08751 0.67959
225 0.83796 0.90398 3.39720 1.05960 0.66598
224 0.82520 0.89896 3.31060 1.03609 0.65852
223 0.81183 0.88128 3.21377 1.00944 0.64836
222 0.79527 0.87151 3.12790 0.98619 0.63943
221 0.79036 0.85805 3.04405 0.96074 0.63255
220 0.77662 0.84890 2.96012 0.94000 0.62462
219 0.76697 0.83560 2.88230 0.91484 0.61778
218 0.75702 0.82402 2.80377 0.89234 0.60662
217 0.74236 0.81487 2.72929 0.87288 0.60113
216 0.73608 0.80164 2.65763 0.85073 0.59569
215 0.72564 0.79663 2.58566 0.83548 0.58452
214 0.71344 0.78403 2.51203 0.81404 0.57825
213 0.70739 0.77310 2.44685 0.79570 0.57415
212 0.70177 0.76127 2.37986 0.77499 0.56460
211 0.68852 0.75551 2.32096 0.75821 0.55764
210 0.68168 0.74358 2.25298 0.73823 0.54833
209 0.67412 0.73287 2.19123 0.72361 0.54470
208 0.66237 0.72699 2.13296 0.70233 0.53530
207 0.65436 0.71608 2.07232 0.68729 0.53116
206 0.64602 0.70485 2.01681 0.66968 0.51908
205 0.63748 0.69874 1.96663 0.65328 0.52429
204 0.62854 0.69053 1.91558 0.64205 0.51155
203 0.61987 0.68059 1.86165 0.62503 0.50652
202 0.61446 0.67458 1.81316 0.61125 0.50286
201 0.60405 0.66607 1.76736 0.59687 0.49500
200 0.59904 0.65104 1.72153 0.57895 0.48673